{"trial_number":1,"trialtype":"TrainingTrial","first_room":"Workshop","doorway":"Doorway","second_room":"LivingRoom","objects_changed":false,"switched_locations":"","respone_objects_have_changed":false,"response_time":2.43333333333332,"confidence":3,"confidence_time":0.666666666666664,"repetitions":0,"error_info":"","Location1":"none","Location2":"none","Location3":"globe","Location4":"calculator","Location5":"can_1","Location6":"milk","Location7":"wrench","first_room_variant":"Workshop-1","second_room_variant":"LivingRoom-1"}

{"trial_number":1,"trialtype":"TrainingTrial","first_room":"Workshop","doorway":"Doorway","second_room":"LivingRoom","objects_changed":false,"switched_locations":"","respone_objects_have_changed":true,"response_time":3.47261904761907,"confidence":-2,"confidence_time":2.34722222222225,"repetitions":0,"error_info":"","Location1":"none","Location2":"none","Location3":"hammer","Location4":"controller_1","Location5":"wrench","Location6":"calculator","Location7":"can_1","first_room_variant":"Workshop-1","second_room_variant":"LivingRoom-1"}

{"trial_number":1,"trialtype":"TrainingTrial","first_room":"Workshop","doorway":"Doorway","second_room":"LivingRoom","objects_changed":false,"switched_locations":"","respone_objects_have_changed":false,"response_time":3.54166666666669,"confidence":2,"confidence_time":0.97222222222225,"repetitions":0,"error_info":"","Location1":"none","Location2":"none","Location3":"hammer","Location4":"controller_1","Location5":"wrench","Location6":"calculator","Location7":"can_1","first_room_variant":"Workshop-1","second_room_variant":"LivingRoom-1"}

{"trial_number":2,"trialtype":"TrainingTrial","first_room":"LivingRoom","doorway":"Doorway","second_room":"Workshop","objects_changed":false,"switched_locations":"","respone_objects_have_changed":true,"response_time":3.31944444444446,"confidence":-1,"confidence_time":0.805555555555578,"repetitions":0,"error_info":"","Location1":"wrench","Location2":"controller_1","Location3":"none","Location4":"can_1","Location5":"dumbbells","Location6":"none","Location7":"hammer","first_room_variant":"LivingRoom-1","second_room_variant":"Workshop-1"}

{"trial_number":3,"trialtype":"TrainingTrial","first_room":"LivingRoom","doorway":"Doorway","second_room":"LivingRoom","objects_changed":true,"switched_locations":"Location4Location1","respone_objects_have_changed":true,"response_time":3.30555555555558,"confidence":-3,"confidence_time":1.09722222222225,"repetitions":0,"error_info":"","Location1":"hammer","Location2":"can_1","Location3":"controller_1","Location4":"wrench","Location5":"none","Location6":"kettlebell","Location7":"none","first_room_variant":"LivingRoom-1","second_room_variant":"LivingRoom-1"}

{"trial_number":4,"trialtype":"TrainingTrial","first_room":"Workshop","doorway":"NoDoorway","second_room":"LivingRoom","objects_changed":true,"switched_locations":"Location1Location6","respone_objects_have_changed":true,"response_time":3.09722222222224,"confidence":2,"confidence_time":0.902777777777803,"repetitions":0,"error_info":"","Location1":"hammer","Location2":"cup_filled","Location3":"can_1","Location4":"dumbbells","Location5":"none","Location6":"calculator","Location7":"none","first_room_variant":"Workshop-1","second_room_variant":"LivingRoom-1"}

{"trial_number":5,"trialtype":"TrainingTrial","first_room":"LivingRoom","doorway":"NoDoorway","second_room":"LivingRoom","objects_changed":false,"switched_locations":"","respone_objects_have_changed":true,"response_time":2.44444444444447,"confidence":1,"confidence_time":2.18055555555558,"repetitions":0,"error_info":"","Location1":"none","Location2":"cup_filled","Location3":"controller_1","Location4":"dumbbells","Location5":"none","Location6":"can_1","Location7":"hammer","first_room_variant":"LivingRoom-1","second_room_variant":"LivingRoom-1"}


