{"trial_number":1,"first_room":"Workshop","doorway":"Doorway","second_room":"LivingRoom","objects_changed":false,"switched_locations":"","respone_objects_have_changed":false,"response_time":0,"confidence":0,"confidence_time":0,"repetitions":1,"error_info":"playerNotInResponseArea","Location1":"none","Location2":"none","Location3":"globe","Location4":"calculator","Location5":"can_1","Location6":"milk","Location7":"wrench","first_room_variant":"Workshop-1","second_room_variant":"LivingRoom-1"}

{"trial_number":1,"first_room":"Workshop","doorway":"Doorway","second_room":"LivingRoom","objects_changed":false,"switched_locations":"","respone_objects_have_changed":false,"response_time":0,"confidence":0,"confidence_time":0,"repetitions":1,"error_info":"playerNotInResponseArea","Location1":"none","Location2":"none","Location3":"globe","Location4":"calculator","Location5":"can_1","Location6":"milk","Location7":"wrench","first_room_variant":"Workshop-1","second_room_variant":"LivingRoom-1"}

{"trial_number":2,"first_room":"LivingRoom","doorway":"Doorway","second_room":"Workshop","objects_changed":false,"switched_locations":"","respone_objects_have_changed":false,"response_time":0,"confidence":0,"confidence_time":0,"repetitions":1,"error_info":"playerNotInResponseArea","Location1":"none","Location2":"milk","Location3":"calculator","Location4":"cup_filled","Location5":"globe","Location6":"can_1","Location7":"none","first_room_variant":"LivingRoom-1","second_room_variant":"Workshop-1"}

{"trial_number":1,"first_room":"Workshop","doorway":"Doorway","second_room":"LivingRoom","objects_changed":false,"switched_locations":"","respone_objects_have_changed":false,"response_time":0,"confidence":0,"confidence_time":0,"repetitions":1,"error_info":"playerNotInResponseArea","Location1":"none","Location2":"none","Location3":"globe","Location4":"calculator","Location5":"can_1","Location6":"milk","Location7":"wrench","first_room_variant":"Workshop-1","second_room_variant":"LivingRoom-1"}

{"trial_number":1,"first_room":"Workshop","doorway":"Doorway","second_room":"LivingRoom","objects_changed":false,"switched_locations":"","respone_objects_have_changed":false,"response_time":0,"confidence":0,"confidence_time":0,"repetitions":1,"error_info":"slowResponse","Location1":"none","Location2":"none","Location3":"globe","Location4":"calculator","Location5":"can_1","Location6":"milk","Location7":"wrench","first_room_variant":"Workshop-1","second_room_variant":"LivingRoom-1"}

{"trial_number":1,"first_room":"Workshop","doorway":"Doorway","second_room":"LivingRoom","objects_changed":false,"switched_locations":"","respone_objects_have_changed":false,"response_time":0,"confidence":0,"confidence_time":0,"repetitions":1,"error_info":"playerNotInResponseArea","Location1":"none","Location2":"none","Location3":"globe","Location4":"calculator","Location5":"can_1","Location6":"milk","Location7":"wrench","first_room_variant":"Workshop-1","second_room_variant":"LivingRoom-1"}

{"trial_number":1,"first_room":"Workshop","doorway":"Doorway","second_room":"LivingRoom","objects_changed":false,"switched_locations":"","respone_objects_have_changed":false,"response_time":0,"confidence":0,"confidence_time":0,"repetitions":1,"error_info":"playerNotInResponseArea","Location1":"none","Location2":"none","Location3":"globe","Location4":"calculator","Location5":"can_1","Location6":"milk","Location7":"wrench","first_room_variant":"Workshop-1","second_room_variant":"LivingRoom-1"}

{"trial_number":1,"first_room":"Workshop","doorway":"Doorway","second_room":"LivingRoom","objects_changed":false,"switched_locations":"","respone_objects_have_changed":false,"response_time":0,"confidence":0,"confidence_time":0,"repetitions":1,"error_info":"playerNotInResponseArea","Location1":"none","Location2":"none","Location3":"globe","Location4":"calculator","Location5":"can_1","Location6":"milk","Location7":"wrench","first_room_variant":"Workshop-1","second_room_variant":"LivingRoom-1"}

{"trial_number":1,"first_room":"Workshop","doorway":"Doorway","second_room":"LivingRoom","objects_changed":false,"switched_locations":"","respone_objects_have_changed":false,"response_time":1.3792558888889,"confidence":1,"confidence_time":0.974875984127002,"repetitions":0,"error_info":"","Location1":"none","Location2":"none","Location3":"globe","Location4":"calculator","Location5":"can_1","Location6":"milk","Location7":"wrench","first_room_variant":"Workshop-1","second_room_variant":"LivingRoom-1"}

{"trial_number":1,"first_room":"Workshop","doorway":"Doorway","second_room":"LivingRoom","objects_changed":false,"switched_locations":"","respone_objects_have_changed":false,"response_time":0,"confidence":0,"confidence_time":0,"repetitions":1,"error_info":"playerNotInResponseArea","Location1":"none","Location2":"none","Location3":"globe","Location4":"calculator","Location5":"can_1","Location6":"milk","Location7":"wrench","first_room_variant":"Workshop-1","second_room_variant":"LivingRoom-1"}

{"trial_number":2,"first_room":"LivingRoom","doorway":"Doorway","second_room":"Workshop","objects_changed":false,"switched_locations":"","respone_objects_have_changed":false,"response_time":0,"confidence":0,"confidence_time":0,"repetitions":1,"error_info":"playerNotInResponseArea","Location1":"none","Location2":"milk","Location3":"calculator","Location4":"cup_filled","Location5":"globe","Location6":"can_1","Location7":"none","first_room_variant":"LivingRoom-1","second_room_variant":"Workshop-1"}

{"trial_number":3,"first_room":"Workshop","doorway":"Doorway","second_room":"Workshop","objects_changed":true,"switched_locations":"Location5Location1","respone_objects_have_changed":false,"response_time":0,"confidence":0,"confidence_time":0,"repetitions":1,"error_info":"playerNotInResponseArea","Location1":"wrench","Location2":"milk","Location3":"none","Location4":"cup_filled","Location5":"globe","Location6":"can_1","Location7":"none","first_room_variant":"Workshop-1","second_room_variant":"Workshop-1"}

{"trial_number":4,"first_room":"LivingRoom","doorway":"NoDoorway","second_room":"LivingRoom","objects_changed":true,"switched_locations":"Location1Location5","respone_objects_have_changed":false,"response_time":1.37818688888891,"confidence":-2,"confidence_time":1.04444922222225,"repetitions":0,"error_info":"","Location1":"can_1","Location2":"calculator","Location3":"wrench","Location4":"milk","Location5":"cup_filled","Location6":"none","Location7":"none","first_room_variant":"LivingRoom-1","second_room_variant":"LivingRoom-1"}

{"trial_number":1,"first_room":"Workshop","doorway":"Doorway","second_room":"LivingRoom","objects_changed":false,"switched_locations":"","respone_objects_have_changed":false,"response_time":0,"confidence":0,"confidence_time":0,"repetitions":1,"error_info":"slowResponse","Location1":"none","Location2":"none","Location3":"globe","Location4":"calculator","Location5":"can_1","Location6":"milk","Location7":"wrench","first_room_variant":"Workshop-1","second_room_variant":"LivingRoom-1"}

{"trial_number":2,"first_room":"LivingRoom","doorway":"Doorway","second_room":"Workshop","objects_changed":false,"switched_locations":"","respone_objects_have_changed":false,"response_time":0,"confidence":0,"confidence_time":0,"repetitions":1,"error_info":"playerNotInResponseArea","Location1":"none","Location2":"milk","Location3":"calculator","Location4":"cup_filled","Location5":"globe","Location6":"can_1","Location7":"none","first_room_variant":"LivingRoom-1","second_room_variant":"Workshop-1"}

{"trial_number":3,"first_room":"Workshop","doorway":"Doorway","second_room":"Workshop","objects_changed":true,"switched_locations":"Location5Location1","respone_objects_have_changed":false,"response_time":1.85266866666668,"confidence":0,"confidence_time":0,"repetitions":1,"error_info":"slowConfidence","Location1":"wrench","Location2":"milk","Location3":"none","Location4":"cup_filled","Location5":"globe","Location6":"can_1","Location7":"none","first_room_variant":"Workshop-1","second_room_variant":"Workshop-1"}

{"trial_number":1,"first_room":"Workshop","doorway":"Doorway","second_room":"LivingRoom","objects_changed":false,"switched_locations":"","respone_objects_have_changed":true,"response_time":0.905534000000011,"confidence":0,"confidence_time":0,"repetitions":1,"error_info":"slowConfidence","Location1":"none","Location2":"none","Location3":"globe","Location4":"calculator","Location5":"can_1","Location6":"milk","Location7":"wrench","first_room_variant":"Workshop-1","second_room_variant":"LivingRoom-1"}

{"trial_number":1,"first_room":"Workshop","doorway":"Doorway","second_room":"LivingRoom","objects_changed":false,"switched_locations":"","respone_objects_have_changed":false,"response_time":0,"confidence":0,"confidence_time":0,"repetitions":1,"error_info":"playerNotInResponseArea","Location1":"none","Location2":"none","Location3":"globe","Location4":"calculator","Location5":"can_1","Location6":"milk","Location7":"wrench","first_room_variant":"Workshop-1","second_room_variant":"LivingRoom-1"}

{"trial_number":1,"first_room":"Workshop","doorway":"Doorway","second_room":"LivingRoom","objects_changed":false,"switched_locations":"","respone_objects_have_changed":false,"response_time":0,"confidence":0,"confidence_time":0,"repetitions":1,"error_info":"playerNotInResponseArea","Location1":"none","Location2":"none","Location3":"globe","Location4":"calculator","Location5":"can_1","Location6":"milk","Location7":"wrench","first_room_variant":"Workshop-1","second_room_variant":"LivingRoom-1"}

{"trial_number":2,"first_room":"LivingRoom","doorway":"Doorway","second_room":"Workshop","objects_changed":false,"switched_locations":"","respone_objects_have_changed":true,"response_time":1.23961577777779,"confidence":-1,"confidence_time":0.487673825396833,"repetitions":0,"error_info":"","Location1":"none","Location2":"milk","Location3":"calculator","Location4":"cup_filled","Location5":"globe","Location6":"can_1","Location7":"none","first_room_variant":"LivingRoom-1","second_room_variant":"Workshop-1"}

{"trial_number":3,"first_room":"Workshop","doorway":"Doorway","second_room":"Workshop","objects_changed":true,"switched_locations":"Location5Location1","respone_objects_have_changed":false,"response_time":0.835552111111116,"confidence":0,"confidence_time":0,"repetitions":1,"error_info":"slowConfidence","Location1":"wrench","Location2":"milk","Location3":"none","Location4":"cup_filled","Location5":"globe","Location6":"can_1","Location7":"none","first_room_variant":"Workshop-1","second_room_variant":"Workshop-1"}

{"trial_number":4,"first_room":"LivingRoom","doorway":"NoDoorway","second_room":"LivingRoom","objects_changed":true,"switched_locations":"Location1Location5","respone_objects_have_changed":false,"response_time":0,"confidence":0,"confidence_time":0,"repetitions":1,"error_info":"slowResponse","Location1":"can_1","Location2":"calculator","Location3":"wrench","Location4":"milk","Location5":"cup_filled","Location6":"none","Location7":"none","first_room_variant":"LivingRoom-1","second_room_variant":"LivingRoom-1"}

{"trial_number":1,"first_room":"Workshop","doorway":"Doorway","second_room":"LivingRoom","objects_changed":false,"switched_locations":"","respone_objects_have_changed":false,"response_time":0,"confidence":0,"confidence_time":0,"repetitions":1,"error_info":"playerNotInResponseArea","Location1":"none","Location2":"none","Location3":"globe","Location4":"calculator","Location5":"can_1","Location6":"milk","Location7":"wrench","first_room_variant":"Workshop-1","second_room_variant":"LivingRoom-1"}

{"trial_number":1,"first_room":"Workshop","doorway":"Doorway","second_room":"LivingRoom","objects_changed":false,"switched_locations":"","respone_objects_have_changed":false,"response_time":0,"confidence":0,"confidence_time":0,"repetitions":1,"error_info":"playerNotInResponseArea","Location1":"none","Location2":"none","Location3":"globe","Location4":"calculator","Location5":"can_1","Location6":"milk","Location7":"wrench","first_room_variant":"Workshop-1","second_room_variant":"LivingRoom-1"}

{"trial_number":1,"first_room":"Workshop","doorway":"Doorway","second_room":"LivingRoom","objects_changed":false,"switched_locations":"","respone_objects_have_changed":false,"response_time":0,"confidence":0,"confidence_time":0,"repetitions":1,"error_info":"playerNotInResponseArea","Location1":"none","Location2":"none","Location3":"globe","Location4":"calculator","Location5":"can_1","Location6":"milk","Location7":"wrench","first_room_variant":"Workshop-1","second_room_variant":"LivingRoom-1"}

{"trial_number":1,"first_room":"Workshop","doorway":"Doorway","second_room":"LivingRoom","objects_changed":false,"switched_locations":"","respone_objects_have_changed":false,"response_time":0,"confidence":0,"confidence_time":0,"repetitions":1,"error_info":"playerNotInResponseArea","Location1":"none","Location2":"none","Location3":"globe","Location4":"calculator","Location5":"can_1","Location6":"milk","Location7":"wrench","first_room_variant":"Workshop-1","second_room_variant":"LivingRoom-1"}

{"trial_number":1,"first_room":"Workshop","doorway":"Doorway","second_room":"LivingRoom","objects_changed":false,"switched_locations":"","respone_objects_have_changed":true,"response_time":0.793796111111122,"confidence":1,"confidence_time":0.181050000000002,"repetitions":0,"error_info":"","Location1":"none","Location2":"none","Location3":"globe","Location4":"calculator","Location5":"can_1","Location6":"milk","Location7":"wrench","first_room_variant":"Workshop-1","second_room_variant":"LivingRoom-1"}

{"trial_number":1,"first_room":"Workshop","doorway":"Doorway","second_room":"LivingRoom","objects_changed":false,"switched_locations":"","respone_objects_have_changed":false,"response_time":0.097222222222225,"confidence":-2,"confidence_time":0.0138888888888893,"repetitions":0,"error_info":"","Location1":"none","Location2":"none","Location3":"globe","Location4":"calculator","Location5":"can_1","Location6":"milk","Location7":"wrench","first_room_variant":"Workshop-1","second_room_variant":"LivingRoom-1"}

{"trial_number":2,"first_room":"LivingRoom","doorway":"Doorway","second_room":"Workshop","objects_changed":false,"switched_locations":"","respone_objects_have_changed":false,"response_time":0,"confidence":0,"confidence_time":0,"repetitions":1,"error_info":"playerNotInResponseArea","Location1":"none","Location2":"milk","Location3":"calculator","Location4":"cup_filled","Location5":"globe","Location6":"can_1","Location7":"none","first_room_variant":"LivingRoom-1","second_room_variant":"Workshop-1"}

{"trial_number":1,"first_room":"Workshop","doorway":"Doorway","second_room":"LivingRoom","objects_changed":false,"switched_locations":"","respone_objects_have_changed":false,"response_time":0.543241222222234,"confidence":-2,"confidence_time":0.445808444444453,"repetitions":0,"error_info":"","Location1":"none","Location2":"none","Location3":"globe","Location4":"calculator","Location5":"can_1","Location6":"milk","Location7":"wrench","first_room_variant":"Workshop-1","second_room_variant":"LivingRoom-1"}

{"trial_number":2,"first_room":"LivingRoom","doorway":"Doorway","second_room":"Workshop","objects_changed":false,"switched_locations":"","respone_objects_have_changed":false,"response_time":0,"confidence":0,"confidence_time":0,"repetitions":1,"error_info":"slowResponse","Location1":"none","Location2":"milk","Location3":"calculator","Location4":"cup_filled","Location5":"globe","Location6":"can_1","Location7":"none","first_room_variant":"LivingRoom-1","second_room_variant":"Workshop-1"}

{"trial_number":1,"first_room":"Workshop","doorway":"Doorway","second_room":"LivingRoom","objects_changed":false,"switched_locations":"","respone_objects_have_changed":false,"response_time":1.03076000000001,"confidence":2,"confidence_time":0.681823666666681,"repetitions":0,"error_info":"","Location1":"none","Location2":"none","Location3":"globe","Location4":"calculator","Location5":"can_1","Location6":"milk","Location7":"wrench","first_room_variant":"Workshop-1","second_room_variant":"LivingRoom-1"}

{"trial_number":2,"first_room":"LivingRoom","doorway":"Doorway","second_room":"Workshop","objects_changed":false,"switched_locations":"","respone_objects_have_changed":true,"response_time":0.50115900000001,"confidence":-3,"confidence_time":2.15872211111112,"repetitions":0,"error_info":"","Location1":"none","Location2":"milk","Location3":"calculator","Location4":"cup_filled","Location5":"globe","Location6":"can_1","Location7":"none","first_room_variant":"LivingRoom-1","second_room_variant":"Workshop-1"}


